trial_nr	onset	event_type	phase	response	nr_frames	onset_abs	duration
0	0.14985418319702148	stim	0		98	10.9292471408844	0.8166708946228027
0	0.9584140777587891	response	0	space		11.737807035446167	
1	0.9665250778198242	stim	0		12982	11.745918035507202	108.18285298347473
1	109.1383171081543	pulse	0	t		119.91771006584167	
1	109.14937806129456	stim	1		72550	119.92877101898193	604.5804200172424
1	110.73347020149231	pulse	1	t		121.51286315917969	
1	112.33287715911865	pulse	1	t		123.11227011680603	
1	113.93286108970642	pulse	1	t		124.7122540473938	
1	115.53282117843628	pulse	1	t		126.31221413612366	
1	117.13280701637268	pulse	1	t		127.91219997406006	
1	118.73275303840637	pulse	1	t		129.51214599609375	
1	120.33273100852966	pulse	1	t		131.11212396621704	
1	121.93271708488464	pulse	1	t		132.71211004257202	
1	123.53272414207458	pulse	1	t		134.31211709976196	
1	125.13340210914612	pulse	1	t		135.9127950668335	
1	126.73284602165222	pulse	1	t		137.5122389793396	
1	128.3333020210266	pulse	1	t		139.112694978714	
1	129.93291020393372	pulse	1	t		140.7123031616211	
1	131.53284621238708	pulse	1	t		142.31223917007446	
1	133.1327030658722	pulse	1	t		143.91209602355957	
1	134.73271012306213	pulse	1	t		145.5121030807495	
1	136.3326530456543	pulse	1	t		147.11204600334167	
1	137.93258213996887	pulse	1	t		148.71197509765625	
1	139.53264713287354	pulse	1	t		150.3120400905609	
1	141.13324809074402	pulse	1	t		151.9126410484314	
1	142.73322010040283	pulse	1	t		153.5126130580902	
1	144.33322715759277	pulse	1	t		155.11262011528015	
1	145.93263220787048	pulse	1	t		156.71202516555786	
1	147.53276205062866	pulse	1	t		158.31215500831604	
1	149.1325809955597	pulse	1	t		159.91197395324707	
1	150.73259711265564	pulse	1	t		161.51199007034302	
1	152.33260011672974	pulse	1	t		163.11199307441711	
1	153.9326250553131	pulse	1	t		164.7120180130005	
1	155.53254103660583	pulse	1	t		166.3119339942932	
1	157.13261818885803	pulse	1	t		167.9120111465454	
1	158.73318719863892	pulse	1	t		169.5125801563263	
1	160.3331470489502	pulse	1	t		171.11254000663757	
1	161.9331510066986	pulse	1	t		172.712543964386	
1	163.53252720832825	pulse	1	t		174.31192016601562	
1	165.13245010375977	pulse	1	t		175.91184306144714	
1	166.73242020606995	pulse	1	t		177.51181316375732	
1	168.332524061203	pulse	1	t		179.11191701889038	
1	169.93241810798645	pulse	1	t		180.71181106567383	
1	171.53241515159607	pulse	1	t		182.31180810928345	
1	173.13256406784058	pulse	1	t		183.91195702552795	
1	174.73303318023682	pulse	1	t		185.5124261379242	
1	176.3332440853119	pulse	1	t		187.11263704299927	
1	177.93318819999695	pulse	1	t		188.71258115768433	
1	179.53314900398254	pulse	1	t		190.31254196166992	
1	181.1330120563507	pulse	1	t		191.9124050140381	
1	182.73254919052124	pulse	1	t		193.51194214820862	
1	184.33252906799316	pulse	1	t		195.11192202568054	
1	185.93265199661255	pulse	1	t		196.71204495429993	
1	187.53256106376648	pulse	1	t		198.31195402145386	
1	189.13233518600464	pulse	1	t		199.91172814369202	
1	190.7330460548401	pulse	1	t		201.51243901252747	
1	192.33304500579834	pulse	1	t		203.11243796348572	
1	193.93296122550964	pulse	1	t		204.71235418319702	
1	195.5329921245575	pulse	1	t		206.31238508224487	
1	197.13291120529175	pulse	1	t		207.91230416297913	
1	198.73297500610352	pulse	1	t		209.5123679637909	
1	200.33232522010803	pulse	1	t		211.1117181777954	
1	201.9323661327362	pulse	1	t		212.71175909042358	
1	203.53240323066711	pulse	1	t		214.3117961883545	
1	205.1323561668396	pulse	1	t		215.91174912452698	
1	206.73300123214722	pulse	1	t		217.5123941898346	
1	208.33295917510986	pulse	1	t		219.11235213279724	
1	209.93293499946594	pulse	1	t		220.71232795715332	
1	211.53297805786133	pulse	1	t		222.3123710155487	
1	213.13296818733215	pulse	1	t		223.91236114501953	
1	214.73287320137024	pulse	1	t		225.51226615905762	
1	216.33288621902466	pulse	1	t		227.11227917671204	
1	217.9329731464386	pulse	1	t		228.71236610412598	
1	219.53230118751526	pulse	1	t		230.31169414520264	
1	221.13221716880798	pulse	1	t		231.91161012649536	
1	222.74056005477905	pulse	1	t		233.51995301246643	
1	224.34060215950012	pulse	1	t		235.1199951171875	
1	225.93279814720154	pulse	1	t		236.71219110488892	
1	227.53285217285156	pulse	1	t		238.31224513053894	
1	229.1328160762787	pulse	1	t		239.91220903396606	
1	230.7327971458435	pulse	1	t		241.51219010353088	
1	232.33282208442688	pulse	1	t		243.11221504211426	
1	233.93279099464417	pulse	1	t		244.71218395233154	
1	235.53273820877075	pulse	1	t		246.31213116645813	
1	237.13217401504517	pulse	1	t		247.91156697273254	
1	238.740581035614	pulse	1	t		249.5199739933014	
1	240.33286023139954	pulse	1	t		251.1122531890869	
1	241.9400269985199	pulse	1	t		252.71941995620728	
1	243.5329761505127	pulse	1	t		254.31236910820007	
1	245.1328890323639	pulse	1	t		255.91228199005127	
1	246.73292112350464	pulse	1	t		257.512314081192	
1	248.33284306526184	pulse	1	t		259.1122360229492	
1	249.93266820907593	pulse	1	t		260.7120611667633	
1	251.53273510932922	pulse	1	t		262.3121280670166	
1	253.13273215293884	pulse	1	t		263.9121251106262	
1	254.74037218093872	pulse	1	t		265.5197651386261	
1	256.3404052257538	pulse	1	t		267.11979818344116	
1	257.94041419029236	pulse	1	t		268.71980714797974	
1	259.53275203704834	pulse	1	t		270.3121449947357	
1	261.1327781677246	pulse	1	t		271.912171125412	
1	262.7326490879059	pulse	1	t		273.51204204559326	
1	264.3327281475067	pulse	1	t		275.1121211051941	
1	265.93271923065186	pulse	1	t		276.71211218833923	
1	267.53273820877075	pulse	1	t		278.31213116645813	
1	269.13268208503723	pulse	1	t		279.9120750427246	
1	270.74034905433655	pulse	1	t		281.5197420120239	
1	272.34034419059753	pulse	1	t		283.1197371482849	
1	273.9403531551361	pulse	1	t		284.7197461128235	
1	275.5403230190277	pulse	1	t		286.3197159767151	
1	277.14037322998047	pulse	1	t		287.91976618766785	
1	278.7325630187988	pulse	1	t		289.5119559764862	
1	280.33256220817566	pulse	1	t		291.11195516586304	
1	281.93262100219727	pulse	1	t		292.71201395988464	
1	283.5325331687927	pulse	1	t		294.3119261264801	
1	285.13257813453674	pulse	1	t		295.9119710922241	
1	286.74030017852783	pulse	1	t		297.5196931362152	
1	288.3403069972992	pulse	1	t		299.1196999549866	
1	289.9402332305908	pulse	1	t		300.7196261882782	
1	291.5402719974518	pulse	1	t		302.31966495513916	
1	293.14027404785156	pulse	1	t		303.91966700553894	
1	294.74034118652344	pulse	1	t		305.5197341442108	
1	296.33257722854614	pulse	1	t		307.1119701862335	
1	297.9325850009918	pulse	1	t		308.7119779586792	
1	299.53234219551086	pulse	1	t		310.31173515319824	
1	301.1324791908264	pulse	1	t		311.9118721485138	
1	302.74026107788086	pulse	1	t		313.51965403556824	
1	304.3402841091156	pulse	1	t		315.119677066803	
1	305.94008016586304	pulse	1	t		316.7194731235504	
1	307.54018115997314	pulse	1	t		318.3195741176605	
1	309.14015221595764	pulse	1	t		319.919545173645	
1	310.74006700515747	pulse	1	t		321.51945996284485	
1	312.34011721611023	pulse	1	t		323.1195101737976	
1	313.9324769973755	pulse	1	t		324.71186995506287	
1	315.53248715400696	pulse	1	t		326.31188011169434	
1	317.13244104385376	pulse	1	t		327.91183400154114	
1	318.74012517929077	pulse	1	t		329.51951813697815	
1	320.34006905555725	pulse	1	t		331.11946201324463	
1	321.94008922576904	pulse	1	t		332.7194821834564	
1	323.5401110649109	pulse	1	t		334.31950402259827	
1	325.14012002944946	pulse	1	t		335.91951298713684	
1	326.7401041984558	pulse	1	t		337.5194971561432	
1	328.34007716178894	pulse	1	t		339.1194701194763	
1	329.94014501571655	pulse	1	t		340.71953797340393	
1	331.5400822162628	pulse	1	t		342.3194751739502	
1	333.13236713409424	pulse	1	t		343.9117600917816	
1	334.7400960922241	pulse	1	t		345.5194890499115	
1	336.3400921821594	pulse	1	t		347.1194851398468	
1	337.9400691986084	pulse	1	t		348.7194621562958	
1	339.54006004333496	pulse	1	t		350.31945300102234	
1	341.14006304740906	pulse	1	t		351.91945600509644	
1	342.74001717567444	pulse	1	t		353.5194101333618	
1	344.33994913101196	pulse	1	t		355.11934208869934	
1	345.9324300289154	pulse	1	t		356.7118229866028	
1	347.5328850746155	pulse	1	t		358.31227803230286	
1	349.1323630809784	pulse	1	t		359.91175603866577	
1	350.73999404907227	pulse	1	t		361.51938700675964	
1	352.3399820327759	pulse	1	t		363.11937499046326	
1	353.9395520687103	pulse	1	t		364.7189450263977	
1	355.54017400741577	pulse	1	t		366.31956696510315	
1	357.1399710178375	pulse	1	t		367.9193639755249	
1	358.7399001121521	pulse	1	t		369.5192930698395	
1	360.33992409706116	pulse	1	t		371.11931705474854	
1	361.9398272037506	pulse	1	t		372.719220161438	
1	363.5398540496826	pulse	1	t		374.31924700737	
1	365.13991618156433	pulse	1	t		375.9193091392517	
1	366.73980808258057	pulse	1	t		377.51920104026794	
1	368.3398711681366	pulse	1	t		379.119264125824	
1	369.9398000240326	pulse	1	t		380.71919298171997	
1	371.53983211517334	pulse	1	t		382.3192250728607	
1	373.13982105255127	pulse	1	t		383.91921401023865	
1	374.7397811412811	pulse	1	t		385.5191740989685	
1	376.33998107910156	pulse	1	t		387.11937403678894	
1	377.93978214263916	pulse	1	t		388.71917510032654	
1	379.53978514671326	pulse	1	t		390.31917810440063	
1	381.1398022174835	pulse	1	t		391.9191951751709	
1	382.73988699913025	pulse	1	t		393.5192799568176	
1	384.33982515335083	pulse	1	t		395.1192181110382	
1	385.93975710868835	pulse	1	t		396.71915006637573	
1	387.539754152298	pulse	1	t		398.31914710998535	
1	389.13975620269775	pulse	1	t		399.91914916038513	
1	390.7397470474243	pulse	1	t		401.5191400051117	
1	392.3398401737213	pulse	1	t		403.1192331314087	
1	393.9396781921387	pulse	1	t		404.71907114982605	
1	395.5397861003876	pulse	1	t		406.31917905807495	
1	397.1397120952606	pulse	1	t		407.919105052948	
1	398.73976707458496	pulse	1	t		409.51916003227234	
1	400.33971905708313	pulse	1	t		411.1191120147705	
1	401.93977904319763	pulse	1	t		412.719172000885	
1	403.53978419303894	pulse	1	t		414.3191771507263	
1	405.13967204093933	pulse	1	t		415.9190649986267	
1	406.73973417282104	pulse	1	t		417.5191271305084	
1	408.33971905708313	pulse	1	t		419.1191120147705	
1	409.93931007385254	pulse	1	t		420.7187030315399	
1	411.5395472049713	pulse	1	t		422.3189401626587	
1	413.1398341655731	pulse	1	t		423.9192271232605	
1	414.73972606658936	pulse	1	t		425.51911902427673	
1	416.3397080898285	pulse	1	t		427.11910104751587	
1	417.939572095871	pulse	1	t		428.71896505355835	
1	419.53964018821716	pulse	1	t		430.31903314590454	
1	421.13958501815796	pulse	1	t		431.91897797584534	
1	422.73963618278503	pulse	1	t		433.5190291404724	
1	424.3395972251892	pulse	1	t		435.1189901828766	
1	425.939670085907	pulse	1	t		436.71906304359436	
1	427.5396041870117	pulse	1	t		438.3189971446991	
1	429.13954401016235	pulse	1	t		439.91893696784973	
1	430.7396340370178	pulse	1	t		441.5190269947052	
1	432.33962512016296	pulse	1	t		443.11901807785034	
1	433.93955302238464	pulse	1	t		444.718945980072	
1	435.5395522117615	pulse	1	t		446.31894516944885	
1	437.1396210193634	pulse	1	t		447.9190139770508	
1	438.7396750450134	pulse	1	t		449.5190680027008	
1	440.33953499794006	pulse	1	t		451.11892795562744	
1	441.9394872188568	pulse	1	t		452.7188801765442	
1	443.5394251346588	pulse	1	t		454.3188180923462	
1	445.1395092010498	pulse	1	t		455.9189021587372	
1	446.7394280433655	pulse	1	t		457.51882100105286	
1	448.33951020240784	pulse	1	t		459.1189031600952	
1	449.9394211769104	pulse	1	t		460.7188141345978	
1	451.5394711494446	pulse	1	t		462.31886410713196	
1	453.1395351886749	pulse	1	t		463.9189281463623	
1	454.73943305015564	pulse	1	t		465.518826007843	
1	456.33951210975647	pulse	1	t		467.11890506744385	
1	457.93951511383057	pulse	1	t		468.71890807151794	
1	459.53950810432434	pulse	1	t		470.3189010620117	
1	461.1394851207733	pulse	1	t		471.9188780784607	
1	462.7394812107086	pulse	1	t		473.518874168396	
1	464.3394341468811	pulse	1	t		475.1188271045685	
1	465.93910121917725	pulse	1	t		476.7184941768646	
1	467.5396890640259	pulse	1	t		478.31908202171326	
1	469.1394011974335	pulse	1	t		479.91879415512085	
1	470.7393751144409	pulse	1	t		481.5187680721283	
1	472.33951115608215	pulse	1	t		483.11890411376953	
1	473.9392580986023	pulse	1	t		484.7186510562897	
1	475.53937005996704	pulse	1	t		486.3187630176544	
1	477.1392831802368	pulse	1	t		487.9186761379242	
1	478.73932218551636	pulse	1	t		489.51871514320374	
1	480.33932614326477	pulse	1	t		491.11871910095215	
1	481.93934416770935	pulse	1	t		492.71873712539673	
1	483.53936409950256	pulse	1	t		494.31875705718994	
1	485.1393620967865	pulse	1	t		495.9187550544739	
1	486.7392430305481	pulse	1	t		497.5186359882355	
1	488.3392741680145	pulse	1	t		499.1186671257019	
1	489.9392771720886	pulse	1	t		500.718670129776	
1	491.5393362045288	pulse	1	t		502.3187291622162	
1	493.1392831802368	pulse	1	t		503.9186761379242	
1	494.73930501937866	pulse	1	t		505.51869797706604	
1	496.33923506736755	pulse	1	t		507.11862802505493	
1	497.93922901153564	pulse	1	t		508.718621969223	
1	499.53922414779663	pulse	1	t		510.318617105484	
1	501.1392011642456	pulse	1	t		511.918594121933	
1	502.73923206329346	pulse	1	t		513.5186250209808	
1	504.33924317359924	pulse	1	t		515.1186361312866	
1	505.93914818763733	pulse	1	t		516.7185411453247	
1	507.5391790866852	pulse	1	t		518.3185720443726	
1	509.1392250061035	pulse	1	t		519.9186179637909	
1	510.73915815353394	pulse	1	t		521.5185511112213	
1	512.3391621112823	pulse	1	t		523.1185550689697	
1	513.9391670227051	pulse	1	t		524.7185599803925	
1	515.539174079895	pulse	1	t		526.3185670375824	
1	517.1392660140991	pulse	1	t		527.9186589717865	
1	518.7391650676727	pulse	1	t		529.5185580253601	
1	520.3387022018433	pulse	1	t		531.1180951595306	
1	521.9387910366058	pulse	1	t		532.7181839942932	
1	523.5394351482391	pulse	1	t		534.3188281059265	
1	525.1392002105713	pulse	1	t		535.9185931682587	
1	526.7391262054443	pulse	1	t		537.5185191631317	
1	528.3391060829163	pulse	1	t		539.1184990406036	
1	529.9390392303467	pulse	1	t		540.7184321880341	
1	531.539046049118	pulse	1	t		542.3184390068054	
1	533.1391921043396	pulse	1	t		543.918585062027	
1	534.7390570640564	pulse	1	t		545.5184500217438	
1	536.3390870094299	pulse	1	t		547.1184799671173	
1	537.9390971660614	pulse	1	t		548.7184901237488	
1	539.539115190506	pulse	1	t		550.3185081481934	
1	541.1391031742096	pulse	1	t		551.918496131897	
1	542.7391641139984	pulse	1	t		553.5185570716858	
1	544.3389940261841	pulse	1	t		555.1183869838715	
1	545.9390292167664	pulse	1	t		556.7184221744537	
1	547.539067029953	pulse	1	t		558.3184599876404	
1	549.1389729976654	pulse	1	t		559.9183659553528	
1	550.7390251159668	pulse	1	t		561.5184180736542	
1	552.3390281200409	pulse	1	t		563.1184210777283	
1	553.9390230178833	pulse	1	t		564.7184159755707	
1	555.5389270782471	pulse	1	t		566.3183200359344	
1	557.1389701366425	pulse	1	t		567.9183630943298	
1	558.7389822006226	pulse	1	t		569.5183751583099	
1	560.33895611763	pulse	1	t		571.1183490753174	
1	561.9388930797577	pulse	1	t		572.7182860374451	
1	563.5388970375061	pulse	1	t		574.3182899951935	
1	565.1389520168304	pulse	1	t		575.9183449745178	
1	566.7388670444489	pulse	1	t		577.5182600021362	
1	568.3388850688934	pulse	1	t		579.1182780265808	
1	569.9388740062714	pulse	1	t		580.7182669639587	
1	571.5389301776886	pulse	1	t		582.318323135376	
1	573.138857126236	pulse	1	t		583.9182500839233	
1	574.738851070404	pulse	1	t		585.5182440280914	
1	576.338870048523	pulse	1	t		587.1182630062103	
1	577.9390480518341	pulse	1	t		588.7184410095215	
1	579.5388340950012	pulse	1	t		590.3182270526886	
1	581.1388311386108	pulse	1	t		591.9182240962982	
1	582.7388360500336	pulse	1	t		593.518229007721	
1	584.3388330936432	pulse	1	t		595.1182260513306	
1	585.9387450218201	pulse	1	t		596.7181379795074	
1	587.5388190746307	pulse	1	t		598.3182120323181	
1	589.1388502120972	pulse	1	t		599.9182431697845	
1	590.7388272285461	pulse	1	t		601.5182201862335	
1	592.3388361930847	pulse	1	t		603.1182291507721	
1	593.9388530254364	pulse	1	t		604.7182459831238	
1	595.5388321876526	pulse	1	t		606.31822514534	
1	597.1387619972229	pulse	1	t		607.9181549549103	
1	598.7387571334839	pulse	1	t		609.5181500911713	
1	600.3387742042542	pulse	1	t		611.1181671619415	
1	601.9388201236725	pulse	1	t		612.7182130813599	
1	603.5388071537018	pulse	1	t		614.3182001113892	
1	605.1387701034546	pulse	1	t		615.918163061142	
1	606.7387590408325	pulse	1	t		617.5181519985199	
1	608.3387022018433	pulse	1	t		619.1180951595306	
1	609.9386870861053	pulse	1	t		620.7180800437927	
1	611.5387542247772	pulse	1	t		622.3181471824646	
1	613.1386821269989	pulse	1	t		623.9180750846863	
1	614.7386920452118	pulse	1	t		625.5180850028992	
1	616.3386981487274	pulse	1	t		627.1180911064148	
1	617.9385480880737	pulse	1	t		628.7179410457611	
1	619.5386881828308	pulse	1	t		630.3180811405182	
1	621.1386551856995	pulse	1	t		631.9180481433868	
1	622.7386832237244	pulse	1	t		633.5180761814117	
1	624.3386330604553	pulse	1	t		635.1180260181427	
1	625.9386570453644	pulse	1	t		636.7180500030518	
1	627.5386462211609	pulse	1	t		638.3180391788483	
1	629.1386530399323	pulse	1	t		639.9180459976196	
1	630.7386569976807	pulse	1	t		641.518049955368	
1	632.3381731510162	pulse	1	t		643.1175661087036	
1	633.9387240409851	pulse	1	t		644.7181169986725	
1	635.5385370254517	pulse	1	t		646.317929983139	
1	637.1385540962219	pulse	1	t		647.9179470539093	
1	638.7385492324829	pulse	1	t		649.5179421901703	
1	640.3384840488434	pulse	1	t		651.1178770065308	
1	641.9384751319885	pulse	1	t		652.7178680896759	
1	643.538535118103	pulse	1	t		654.3179280757904	
1	645.138524055481	pulse	1	t		655.9179170131683	
1	646.7385740280151	pulse	1	t		657.5179669857025	
1	648.338445186615	pulse	1	t		659.1178381443024	
1	649.9385402202606	pulse	1	t		660.717933177948	
1	651.5385332107544	pulse	1	t		662.3179261684418	
1	653.1386821269989	pulse	1	t		663.9180750846863	
1	654.7384459972382	pulse	1	t		665.5178389549255	
1	656.3385701179504	pulse	1	t		667.1179630756378	
1	657.9385170936584	pulse	1	t		668.7179100513458	
1	659.5386080741882	pulse	1	t		670.3180010318756	
1	661.1384830474854	pulse	1	t		671.9178760051727	
1	662.7384610176086	pulse	1	t		673.517853975296	
1	664.3384721279144	pulse	1	t		675.1178650856018	
1	665.9384410381317	pulse	1	t		676.7178339958191	
1	667.5384771823883	pulse	1	t		678.3178701400757	
1	669.1384491920471	pulse	1	t		679.9178421497345	
1	670.7383630275726	pulse	1	t		681.51775598526	
1	672.3384010791779	pulse	1	t		683.1177940368652	
1	673.938451051712	pulse	1	t		684.7178440093994	
1	675.5384631156921	pulse	1	t		686.3178560733795	
1	677.1384072303772	pulse	1	t		687.9178001880646	
1	678.7384030818939	pulse	1	t		689.5177960395813	
1	680.3383800983429	pulse	1	t		691.1177730560303	
1	681.9384410381317	pulse	1	t		692.7178339958191	
1	683.538321018219	pulse	1	t		694.3177139759064	
1	685.1385262012482	pulse	1	t		695.9179191589355	
1	686.7383961677551	pulse	1	t		697.5177891254425	
1	688.3378942012787	pulse	1	t		699.1172871589661	
1	689.9380140304565	pulse	1	t		700.7174069881439	
1	691.5382721424103	pulse	1	t		702.3176651000977	
1	693.1383731365204	pulse	1	t		703.9177660942078	
1	694.7383110523224	pulse	1	t		705.5177040100098	
1	696.3382501602173	pulse	1	t		707.1176431179047	
1	697.9383451938629	pulse	1	t		708.7177381515503	
1	699.5381669998169	pulse	1	t		710.3175599575043	
1	701.1382122039795	pulse	1	t		711.9176051616669	
1	702.7381892204285	pulse	1	t		713.5175821781158	
